{
  "resourceType": "Bundle",
  "id": "909080",
  "type": "collection",
  "timestamp": "2022-04-05T16:02:05.054+02:00",
  "entry": [ {
    "fullUrl": "http://interopEHRate.eu/fhir-resource/Patient/3466",
    "resource": {
      "resourceType": "Patient",
      "id": "3466",
      "meta": {
        "profile": [ "http://interopehrate.eu/fhir/StructureDefinition/Patient-IEHR" ]
      },
      "language": "it-IT",
      "identifier": [ {
        "system": "http://interopEHRate.eu/fhir-resource/",
        "value": "Patient/MS01"
      } ],
      "name": [ {
        "family": "Smith",
        "given": [ "Markus" ]
      } ],
      "gender": "male",
      "birthDate": "2013-12-05",
      "address": [ {
        "use": "home",
        "type": "physical",
        "city": "Rome",
        "country": "ITA"
      } ],
      "generalPractitioner": [ {
        "reference": "Organization/34432"
      } ]
    }
  }, {
    "fullUrl": "http://interopEHRate.eu/fhir-resource/Organization/34432",
    "resource": {
      "resourceType": "Organization",
      "id": "34432",
      "meta": {
        "profile": [ "http://hl7.org/fhir/uv/ips/StructureDefinition/Organization-uv-ips" ]
      },
      "language": "it-IT",
      "identifier": [ {
        "system": "http://interopEHRate.eu/fhir-resource/",
        "value": "Organization/FTGM01"
      } ],
      "name": "Fondazione Gabriele Monasterio",
      "address": [ {
        "line": [ "Via Giuseppe Moruzzi 1" ],
        "city": "Pisa",
        "country": "IT"
      } ]
    }
  }, {
    "fullUrl": "http://interopEHRate.eu/fhir-resource/Media/2112",
    "resource": {
      "resourceType": "Media",
      "id": "2112",
      "meta": {
        "profile": [ "http://interopehrate.eu/fhir/StructureDefinition/Media-IEHR" ]
      },
      "extension": [ {
        "url": "http://interopehrate.eu/fhir/StructureDefinition/ProvenanceExtension-IEHR",
        "valueReference": {
          "reference": "Provenance/2"
        }
      } ],
      "status": "completed",
      "subject": {
        "reference": "Patient/3466"
      },
      "operator": {
        "reference": "Organization/34432"
      },
      "content": {
        "contentType": "image/png",
        "data": "",
        "creation": "2022-04-05"
      }
    }
  }, {
    "fullUrl": "http://interopEHRate.eu/fhir-resource/Media/2111",
    "resource": {
      "resourceType": "Media",
      "id": "2111",
      "meta": {
        "profile": [ "http://interopehrate.eu/fhir/StructureDefinition/Media-IEHR" ]
      },
      "extension": [ {
        "url": "http://interopehrate.eu/fhir/StructureDefinition/ProvenanceExtension-IEHR",
        "valueReference": {
          "reference": "Provenance/2"
        }
      } ],
      "status": "completed",
      "subject": {
        "reference": "Patient/3466"
      },
      "operator": {
        "reference": "Organization/34432"
      },
      "content": {
        "contentType": "image/ecg",
        "data": "",
        "creation": "2022-04-05"
      }
    }
  }, {
    "fullUrl": "http://interopEHRate.eu/fhir-resource/Observation/9113",
    "resource": {
      "resourceType": "Observation",
      "id": "9113",
      "meta": {
        "profile": [ "http://interopehrate.eu/fhir/StructureDefinition/Observation-BioSignal-IEHR" ]
      },
      "extension": [ {
        "url": "http://interopehrate.eu/fhir/StructureDefinition/ProvenanceExtension-IEHR",
        "valueReference": {
          "reference": "Provenance/2"
        }
      } ],
      "status": "final",
      "code": {
        "coding": [ {
          "system": "http://loinc.org",
          "code": "18810-2",
          "display": "EKG Study observation overall (narrative)"
        } ]
      },
      "subject": {
        "reference": "Patient/3466"
      },
      "effectivePeriod": {
        "start": "2022-04-05",
        "end": "2022-04-05"
      },
      "performer": [ {
        "reference": "Organization/34432"
      } ],
      "component": [ {
        "code": {
          "coding": [ {
            "system": "http://loinc.org",
            "code": "76281-5",
            "display": "Type of arrhythmia on EKG"
          } ]
        },
        "valueCodeableConcept": {
          "coding": [ {
            "system": "http://loinc.org",
            "code": "LA17718-0",
            "display": "Sinus rhythm"
          } ]
        },
        "interpretation": [ {
          "coding": [ {
            "system": "http://terminology.hl7.org/CodeSystem/v3-ObservationInterpretation",
            "code": "N",
            "display": "normal"
          } ]
        } ]
      }, {
        "code": {
          "coding": [ {
            "system": "http://loinc.org",
            "code": "8867-4",
            "display": "Heart rate"
          } ]
        },
        "valueQuantity": {
          "value": 70,
          "unit": "/min",
          "system": "http://unitsofmeasure.org",
          "code": "/min"
        },
        "interpretation": [ {
          "coding": [ {
            "system": "http://terminology.hl7.org/CodeSystem/v3-ObservationInterpretation",
            "code": "N",
            "display": "normal"
          } ]
        } ]
      }, {
        "code": {
          "coding": [ {
            "system": "http://loinc.org",
            "code": "76281-5",
            "display": "Type of arrhythmia on EKG"
          } ]
        },
        "valueCodeableConcept": {
          "coding": [ {
            "system": "http://loinc.org",
            "code": "LA17091-2",
            "display": "Left bundle branch block"
          } ]
        },
        "interpretation": [ {
          "coding": [ {
            "system": "http://terminology.hl7.org/CodeSystem/v3-ObservationInterpretation",
            "code": "N",
            "display": "normal"
          } ]
        } ]
      }, {
        "code": {
          "coding": [ {
            "system": "http://loinc.org",
            "code": "8625-6",
            "display": "P-R Interval"
          } ]
        },
        "valueQuantity": {
          "value": 0.14,
          "unit": "s",
          "system": "http://unitsofmeasure.org",
          "code": "s"
        }
      }, {
        "code": {
          "coding": [ {
            "system": "http://loinc.org",
            "code": "8633-0",
            "display": "QRS duration"
          } ]
        },
        "valueQuantity": {
          "value": 85,
          "unit": "ms",
          "system": "http://unitsofmeasure.org",
          "code": "ms"
        }
      }, {
        "code": {
          "coding": [ {
            "system": "http://loinc.org",
            "code": "8634-8",
            "display": "Q-T interval"
          } ]
        },
        "valueQuantity": {
          "value": 380,
          "unit": "ms",
          "system": "http://unitsofmeasure.org",
          "code": "ms"
        }
      } ]
    }
  }, {
    "fullUrl": "http://interopEHRate.eu/fhir-resource/DiagnosticReport/9111",
    "resource": {
      "resourceType": "DiagnosticReport",
      "id": "9111",
      "meta": {
        "profile": [ "http://interopehrate.eu/fhir/StructureDefinition/DiagnosticReport-BioSignalReport-IEHR" ]
      },
      "language": "en",
      "extension": [ {
        "url": "http://interopehrate.eu/fhir/StructureDefinition/ProvenanceExtension-IEHR",
        "valueReference": {
          "reference": "Provenance/2"
        }
      }, {
        "url": "http://interopehrate.eu/fhir/StructureDefinition/UnstructuredResultExtension-IEHR",
        "valueReference": {
          "reference": "DocumentReference/91155"
        }
      } ],
      "identifier": [ {
        "type": {
          "coding": [ {
            "system": "http://terminology.hl7.org/CodeSystem/v2-0203",
            "code": "PRN"
          } ]
        },
        "value": "2a3-4b4-5c5-6d6"
      } ],
      "status": "final",
      "category": [ {
        "coding": [ {
          "system": "http://terminology.hl7.org/CodeSystem/v2-0074",
          "code": "EC",
          "display": "Electrocardiac (e.g., EKG, EEC, Holter)"
        } ]
      } ],
      "code": {
        "coding": [ {
          "system": "http://loinc.org",
          "code": "30954-2",
          "display": "Relevant diagnostic tests/laboratory data Narrative"
        } ]
      },
      "subject": {
        "reference": "Patient/3466"
      },
      "effectivePeriod": {
        "start": "2022-04-05",
        "end": "2022-04-05"
      },
      "performer": [ {
        "reference": "Organization/34432"
      } ],
      "resultsInterpreter": [ {
        "reference": "Organization/34432"
      } ],
      "result": [ {
        "reference": "Observation/9113"
      } ],
      "media": [ {
        "link": {
          "reference": "Media/2112"
        }
      } ]
    }
  } ]
}