{
  "resourceType": "Bundle",
  "id": "321457432",
  "type": "collection",
  "timestamp": "2022-04-06T11:26:04.468+02:00",
  "entry": [ {
    "fullUrl": "http://interopehrate.eu/fhir/Resources/DocumentManifest/11",
    "resource": {
      "resourceType": "DocumentManifest",
      "id": "11",
      "meta": {
        "profile": [ "http://interopehrate.eu/fhir/StructureDefinition/DocumentManifest-IEHR" ]
      },
      "extension": [ {
        "url": "http://interopehrate.eu/fhir/StructureDefinition/ProvenanceExtension-IEHR",
        "valueReference": {
          "reference": "Provenance/30"
        }
      } ],
      "status": "current",
      "type": {
        "coding": [ {
          "system": "http://terminology.hl7.org/CodeSystem/v3-ActCode",
          "code": "GENRL",
          "display": "General"
        } ]
      },
      "subject": {
        "reference": "Patient/3466"
      },
      "created": "2022-04-06T11:26:45+02:00",
      "author": [ {
        "reference": "Practitioner/21"
      } ],
      "description": "This is an example manifest",
      "content": [ {
        "reference": "DocumentReference/34561"
      }, {
        "reference": "DocumentReference/34562"
      }, {
        "reference": "DocumentReference/34563"
      }, {
        "reference": "DocumentReference/34564"
      }, {
        "reference": "DocumentReference/34565"
      }, {
        "reference": "DocumentReference/34566"
      }, {
        "reference": "DocumentReference/34567"
      }, {
        "reference": "DocumentReference/34568"
      } ]
    }
  }, {
    "fullUrl": "http://interopehrate.eu/fhir/Resources/DocumentReference/34561",
    "resource": {
      "resourceType": "DocumentReference",
      "id": "34561",
      "meta": {
        "profile": [ "http://interopehrate.eu/fhir/StructureDefinition/DocumentReference-IEHR" ]
      },
      "language": "en",
      "extension": [ {
        "url": "http://interopehrate.eu/fhir/StructureDefinition/ProvenanceExtension-IEHR",
        "valueReference": {
          "reference": "Provenance/30"
        }
      } ],
      "identifier": [ {
        "system": "urn:oid:1.11.111.1.1.11.111.11",
        "value": "123321ab-123321ab"
      } ],
      "status": "current",
      "docStatus": "final",
      "type": {
        "coding": [ {
          "system": "http://loinc.org",
          "code": "34099-2",
          "display": "Cardiology Consult note"
        } ]
      },
      "category": [ {
        "coding": [ {
          "system": "http://loinc.org",
          "code": "11488-4",
          "display": "Consult Note"
        } ]
      } ],
      "subject": {
        "reference": "Patient/3466"
      },
      "date": "2022-04-06T11:26:05.411+02:00",
      "author": [ {
        "reference": "Practitioner/21"
      } ],
      "custodian": {
        "reference": "Organization/34432"
      },
      "description": "This is an example for the use of a DocumentReference",
      "content": [ {
        "attachment": {
          "contentType": "application/pdf",
          "language": "en",
          "data": "",
          "title": "exampleCardConsult",
          "creation": "2020-06-25"
        },
        "format": {
          "system": "http://ihe.net/fhir/ihe.formatcode.fhir/CodeSystem/formatcode",
          "code": "urn:ihe:iti:xds:2017:mimeTypeSufficient",
          "display": "mimeType Sufficient"
        }
      } ],
      "context": {
        "period": {
          "start": "2022-04-06",
          "end": "2022-04-06"
        },
        "practiceSetting": {
          "coding": [ {
            "system": "http://snomed.info/sct",
            "code": "394579002",
            "display": "Cardiology"
          } ]
        }
      }
    }
  }, {
    "fullUrl": "http://interopehrate.eu/fhir/Resources/DocumentReference/34562",
    "resource": {
      "resourceType": "DocumentReference",
      "id": "34562",
      "meta": {
        "profile": [ "http://interopehrate.eu/fhir/StructureDefinition/DocumentReference-IEHR" ]
      },
      "language": "en",
      "extension": [ {
        "url": "http://interopehrate.eu/fhir/StructureDefinition/ProvenanceExtension-IEHR",
        "valueReference": {
          "reference": "Provenance/30"
        }
      } ],
      "identifier": [ {
        "system": "urn:oid:1.11.111.1.1.11.111.11",
        "value": "123322ab-123322ab"
      } ],
      "status": "current",
      "docStatus": "final",
      "type": {
        "coding": [ {
          "system": "http://loinc.org",
          "code": "74146-2",
          "display": "Heart disease action plan"
        } ]
      },
      "category": [ {
        "coding": [ {
          "system": "http://loinc.org",
          "code": "56447-6",
          "display": "Deprecated Plan of care note"
        } ]
      } ],
      "subject": {
        "reference": "Patient/3466"
      },
      "date": "2015-02-07T13:28:17Z",
      "author": [ {
        "reference": "Practitioner/21"
      } ],
      "custodian": {
        "reference": "Organization/34432"
      },
      "description": "This is an example for the use of a DocumentReference",
      "content": [ {
        "attachment": {
          "contentType": "application/pdf",
          "language": "en",
          "data": "",
          "title": "exampleHeartDiseaseActionPlan",
          "creation": "2015-02-07"
        },
        "format": {
          "system": "http://ihe.net/fhir/ihe.formatcode.fhir/CodeSystem/formatcode",
          "code": "urn:ihe:iti:xds:2017:mimeTypeSufficient",
          "display": "mimeType Sufficient"
        }
      } ],
      "context": {
        "period": {
          "start": "2022-04-06",
          "end": "2022-04-06"
        },
        "practiceSetting": {
          "coding": [ {
            "system": "http://snomed.info/sct",
            "code": "394579002",
            "display": "Cardiology"
          } ]
        }
      }
    }
  }, {
    "fullUrl": "http://interopehrate.eu/fhir/Resources/DocumentReference/34563",
    "resource": {
      "resourceType": "DocumentReference",
      "id": "34563",
      "meta": {
        "profile": [ "http://interopehrate.eu/fhir/StructureDefinition/DocumentReference-IEHR" ]
      },
      "language": "en",
      "extension": [ {
        "url": "http://interopehrate.eu/fhir/StructureDefinition/ProvenanceExtension-IEHR",
        "valueReference": {
          "reference": "Provenance/30"
        }
      } ],
      "identifier": [ {
        "system": "urn:oid:1.11.111.1.1.11.111.11",
        "value": "123323ab-123323ab"
      } ],
      "status": "current",
      "docStatus": "final",
      "type": {
        "coding": [ {
          "system": "http://loinc.org",
          "code": "64299-1",
          "display": "Legal document"
        } ]
      },
      "category": [ {
        "coding": [ {
          "system": "http://loinc.org",
          "code": "34109-9",
          "display": "Note"
        } ]
      } ],
      "subject": {
        "reference": "Patient/3466"
      },
      "date": "2018-04-09T10:20:23.000+00:00",
      "author": [ {
        "reference": "Practitioner/21"
      } ],
      "custodian": {
        "reference": "Organization/34432"
      },
      "description": "This is an example for the use of a DocumentReference",
      "content": [ {
        "attachment": {
          "contentType": "application/pdf",
          "language": "en",
          "data": "",
          "title": "exampleNeurologyLegalDocument",
          "creation": "2018-04-09"
        },
        "format": {
          "system": "http://ihe.net/fhir/ihe.formatcode.fhir/CodeSystem/formatcode",
          "code": "urn:ihe:iti:xds:2017:mimeTypeSufficient",
          "display": "mimeType Sufficient"
        }
      } ],
      "context": {
        "period": {
          "start": "2022-04-06",
          "end": "2022-04-06"
        },
        "practiceSetting": {
          "coding": [ {
            "system": "http://snomed.info/sct",
            "code": "394579002",
            "display": "Cardiology"
          } ]
        }
      }
    }
  }, {
    "fullUrl": "http://interopehrate.eu/fhir/Resources/DocumentReference/34564",
    "resource": {
      "resourceType": "DocumentReference",
      "id": "34564",
      "meta": {
        "profile": [ "http://interopehrate.eu/fhir/StructureDefinition/DocumentReference-IEHR" ]
      },
      "language": "en",
      "extension": [ {
        "url": "http://interopehrate.eu/fhir/StructureDefinition/ProvenanceExtension-IEHR",
        "valueReference": {
          "reference": "Provenance/30"
        }
      } ],
      "identifier": [ {
        "system": "urn:oid:1.11.111.1.1.11.111.11",
        "value": "123324ab-123324ab"
      } ],
      "status": "current",
      "docStatus": "final",
      "type": {
        "coding": [ {
          "system": "http://loinc.org",
          "code": "34099-2",
          "display": "Cardiology Consult note"
        } ]
      },
      "category": [ {
        "coding": [ {
          "system": "http://loinc.org",
          "code": "11488-4",
          "display": "Consult Note"
        } ]
      } ],
      "subject": {
        "reference": "Patient/3466"
      },
      "date": "2019-07-18T16:25:12.000+00:00",
      "author": [ {
        "reference": "Practitioner/21"
      } ],
      "custodian": {
        "reference": "Organization/34432"
      },
      "description": "This is an example for the use of a DocumentReference",
      "content": [ {
        "attachment": {
          "contentType": "application/pdf",
          "language": "en",
          "data": "",
          "title": "examplePsychiatryHistory",
          "creation": "2019-07-18"
        },
        "format": {
          "system": "http://ihe.net/fhir/ihe.formatcode.fhir/CodeSystem/formatcode",
          "code": "urn:ihe:iti:xds:2017:mimeTypeSufficient",
          "display": "mimeType Sufficient"
        }
      } ],
      "context": {
        "period": {
          "start": "2022-04-06",
          "end": "2022-04-06"
        },
        "practiceSetting": {
          "coding": [ {
            "system": "http://snomed.info/sct",
            "code": "394587001",
            "display": "Psychiatry"
          } ]
        }
      }
    }
  }, {
    "fullUrl": "http://interopehrate.eu/fhir/Resources/DocumentReference/34565",
    "resource": {
      "resourceType": "DocumentReference",
      "id": "34565",
      "meta": {
        "profile": [ "http://interopehrate.eu/fhir/StructureDefinition/DocumentReference-IEHR" ]
      },
      "language": "en",
      "extension": [ {
        "url": "http://interopehrate.eu/fhir/StructureDefinition/ProvenanceExtension-IEHR",
        "valueReference": {
          "reference": "Provenance/30"
        }
      } ],
      "identifier": [ {
        "system": "urn:oid:1.11.111.1.1.11.111.11",
        "value": "123325ab-123325ab"
      } ],
      "status": "current",
      "docStatus": "final",
      "type": {
        "coding": [ {
          "system": "http://loinc.org",
          "code": "34896-1",
          "display": "Cardiology Interventional procedure note"
        } ]
      },
      "category": [ {
        "coding": [ {
          "system": "http://loinc.org",
          "code": "28570-0",
          "display": "Procedure note"
        } ]
      } ],
      "subject": {
        "reference": "Patient/3466"
      },
      "date": "2012-11-11T12:00:18.000+00:00",
      "author": [ {
        "reference": "Practitioner/21"
      } ],
      "custodian": {
        "reference": "Organization/34432"
      },
      "description": "This is an example for the use of a DocumentReference",
      "content": [ {
        "attachment": {
          "contentType": "application/pdf",
          "language": "en",
          "data": "",
          "title": "exampleCardiologyProcedure",
          "creation": "2012-11-11"
        },
        "format": {
          "system": "http://ihe.net/fhir/ihe.formatcode.fhir/CodeSystem/formatcode",
          "code": "urn:ihe:iti:xds:2017:mimeTypeSufficient",
          "display": "mimeType Sufficient"
        }
      } ],
      "context": {
        "period": {
          "start": "2022-04-06",
          "end": "2022-04-06"
        },
        "practiceSetting": {
          "coding": [ {
            "system": "http://snomed.info/sct",
            "code": "394579002",
            "display": "Cardiology"
          } ]
        }
      }
    }
  }, {
    "fullUrl": "http://interopehrate.eu/fhir/Resources/DocumentReference/34566",
    "resource": {
      "resourceType": "DocumentReference",
      "id": "34566",
      "meta": {
        "profile": [ "http://interopehrate.eu/fhir/StructureDefinition/DocumentReference-IEHR" ]
      },
      "language": "en",
      "extension": [ {
        "url": "http://interopehrate.eu/fhir/StructureDefinition/ProvenanceExtension-IEHR",
        "valueReference": {
          "reference": "Provenance/30"
        }
      } ],
      "identifier": [ {
        "system": "urn:oid:1.11.111.1.1.11.111.11",
        "value": "123326ab-123326ab"
      } ],
      "status": "current",
      "docStatus": "final",
      "type": {
        "coding": [ {
          "system": "http://loinc.org",
          "code": "34094-3",
          "display": "Cardiology Hospital Admission history and physical note"
        } ]
      },
      "category": [ {
        "coding": [ {
          "system": "http://loinc.org",
          "code": "47039-3",
          "display": "Hospital Admission history and physical note"
        } ]
      } ],
      "subject": {
        "reference": "Patient/3466"
      },
      "date": "2007-07-07T14:58:40.000+00:00",
      "author": [ {
        "reference": "Practitioner/21"
      } ],
      "custodian": {
        "reference": "Organization/34432"
      },
      "description": "This is an example for the use of a DocumentReference",
      "content": [ {
        "attachment": {
          "contentType": "application/pdf",
          "language": "en",
          "data": "",
          "title": "examplePediatricSurgery",
          "creation": "2007-07-07"
        },
        "format": {
          "system": "http://ihe.net/fhir/ihe.formatcode.fhir/CodeSystem/formatcode",
          "code": "urn:ihe:iti:xds:2017:mimeTypeSufficient",
          "display": "mimeType Sufficient"
        }
      } ],
      "context": {
        "period": {
          "start": "2022-04-06",
          "end": "2022-04-06"
        },
        "practiceSetting": {
          "coding": [ {
            "system": "http://snomed.info/sct",
            "code": "394587001",
            "display": "Psychiatry"
          } ]
        }
      }
    }
  }, {
    "fullUrl": "http://interopehrate.eu/fhir/Resources/DocumentReference/34567",
    "resource": {
      "resourceType": "DocumentReference",
      "id": "34567",
      "meta": {
        "profile": [ "http://interopehrate.eu/fhir/StructureDefinition/DocumentReference-IEHR" ]
      },
      "language": "en",
      "extension": [ {
        "url": "http://interopehrate.eu/fhir/StructureDefinition/ProvenanceExtension-IEHR",
        "valueReference": {
          "reference": "Provenance/30"
        }
      } ],
      "identifier": [ {
        "system": "urn:oid:1.11.111.1.1.11.111.11",
        "value": "123327ab-123327ab"
      } ],
      "status": "current",
      "docStatus": "final",
      "type": {
        "coding": [ {
          "system": "http://loinc.org",
          "code": "34107-3",
          "display": "Patient's home Education note"
        } ]
      },
      "category": [ {
        "coding": [ {
          "system": "http://loinc.org",
          "code": "56447-6",
          "display": "Deprecated Plan of care note"
        } ]
      } ],
      "subject": {
        "reference": "Patient/3466"
      },
      "date": "2016-12-12T12:00:18.000+00:00",
      "author": [ {
        "reference": "Practitioner/21"
      } ],
      "custodian": {
        "reference": "Organization/34432"
      },
      "description": "This is an example for the use of a DocumentReference",
      "content": [ {
        "attachment": {
          "contentType": "application/pdf",
          "language": "en",
          "data": "",
          "title": "exampleHomeEducationNote",
          "creation": "2016-12-12"
        },
        "format": {
          "system": "http://ihe.net/fhir/ihe.formatcode.fhir/CodeSystem/formatcode",
          "code": "urn:ihe:iti:xds:2017:mimeTypeSufficient",
          "display": "mimeType Sufficient"
        }
      } ],
      "context": {
        "period": {
          "start": "2022-04-06",
          "end": "2022-04-06"
        },
        "practiceSetting": {
          "coding": [ {
            "system": "http://snomed.info/sct",
            "code": "394587001",
            "display": "Psychiatry"
          } ]
        }
      }
    }
  }, {
    "fullUrl": "http://interopehrate.eu/fhir/Resources/DocumentReference/34568",
    "resource": {
      "resourceType": "DocumentReference",
      "id": "34568",
      "meta": {
        "profile": [ "http://interopehrate.eu/fhir/StructureDefinition/DocumentReference-IEHR" ]
      },
      "language": "en",
      "extension": [ {
        "url": "http://interopehrate.eu/fhir/StructureDefinition/ProvenanceExtension-IEHR",
        "valueReference": {
          "reference": "Provenance/30"
        }
      } ],
      "identifier": [ {
        "system": "urn:oid:1.11.111.1.1.11.111.11",
        "value": "123328ab-123328ab"
      } ],
      "status": "current",
      "docStatus": "final",
      "type": {
        "coding": [ {
          "system": "http://loinc.org",
          "code": "56447-6",
          "display": "Deprecated Plan of care note"
        } ]
      },
      "category": [ {
        "coding": [ {
          "system": "http://loinc.org",
          "code": "56447-6",
          "display": "Deprecated Plan of care note"
        } ]
      } ],
      "subject": {
        "reference": "Patient/3466"
      },
      "date": "2020-08-10T10:58:40.000+00:00",
      "author": [ {
        "reference": "Practitioner/21"
      } ],
      "custodian": {
        "reference": "Organization/34432"
      },
      "description": "This is an example for the use of a DocumentReference",
      "content": [ {
        "attachment": {
          "contentType": "application/pdf",
          "language": "en",
          "data": "",
          "title": "examplePsychiatryConsultNote",
          "creation": "2020-08-10"
        },
        "format": {
          "system": "http://ihe.net/fhir/ihe.formatcode.fhir/CodeSystem/formatcode",
          "code": "urn:ihe:iti:xds:2017:mimeTypeSufficient",
          "display": "mimeType Sufficient"
        }
      } ],
      "context": {
        "period": {
          "start": "2022-04-06",
          "end": "2022-04-06"
        },
        "practiceSetting": {
          "coding": [ {
            "system": "http://snomed.info/sct",
            "code": "394587001",
            "display": "Psychiatry"
          } ]
        }
      }
    }
  }, {
    "fullUrl": "http://interopehrate.eu/fhir/Resources/Patient/3466",
    "resource": {
      "resourceType": "Patient",
      "id": "3466",
      "meta": {
        "profile": [ "http://interopehrate.eu/fhir/StructureDefinition/Patient-IEHR" ]
      },
      "language": "it-IT",
      "identifier": [ {
        "system": "http://interopEHRate.eu/fhir-resource/",
        "value": "Patient/MS01"
      } ],
      "name": [ {
        "family": "Smith",
        "given": [ "Markus" ]
      } ],
      "gender": "male",
      "birthDate": "2013-12-05",
      "address": [ {
        "use": "home",
        "type": "physical",
        "city": "Rome",
        "country": "ITA"
      } ],
      "generalPractitioner": [ {
        "reference": "Organization/34432"
      } ]
    }
  }, {
    "fullUrl": "http://interopehrate.eu/fhir/Resources/Organization/34432",
    "resource": {
      "resourceType": "Organization",
      "id": "34432",
      "meta": {
        "profile": [ "http://hl7.org/fhir/uv/ips/StructureDefinition/Organization-uv-ips" ]
      },
      "language": "it-IT",
      "identifier": [ {
        "system": "http://interopEHRate.eu/fhir-resource/",
        "value": "Organization/FTGM01"
      } ],
      "name": "Fondazione Gabriele Monasterio",
      "address": [ {
        "line": [ "Via Giuseppe Moruzzi 1" ],
        "city": "Pisa",
        "country": "IT"
      } ]
    }
  }, {
    "fullUrl": "http://interopehrate.eu/fhir/Resources/Practitioner/21",
    "resource": {
      "resourceType": "Practitioner",
      "id": "21",
      "meta": {
        "profile": [ "http://hl7.org/fhir/uv/ips/StructureDefinition/Practitioner-uv-ips" ]
      },
      "language": "it-IT",
      "identifier": [ {
        "system": "http://interopEHRate.eu/fhir-resource/",
        "value": "Practitioner/MA01"
      } ],
      "name": [ {
        "family": "Antonio",
        "given": [ "Mark" ]
      } ]
    }
  }, {
    "fullUrl": "http://interopehrate.eu/fhir/Resources/Provenance/30",
    "resource": {
      "resourceType": "Provenance",
      "id": "30",
      "meta": {
        "profile": [ "http://interopehrate.eu/fhir/StructureDefinition/Provenance-IEHR" ]
      },
      "target": [ {
        "reference": "DocumentManifest/11"
      } ],
      "recorded": "2022-04-06T11:26:04.471+02:00",
      "agent": [ {
        "type": {
          "coding": [ {
            "system": "http://terminology.hl7.org/CodeSystem/provenance-participant-type",
            "code": "author",
            "display": "Author"
          } ]
        },
        "who": {
          "reference": "Practitioner/21"
        }
      }, {
        "type": {
          "coding": [ {
            "system": "http://terminology.hl7.org/CodeSystem/provenance-participant-type",
            "code": "custodian",
            "display": "Custodian"
          } ]
        },
        "who": {
          "reference": "Practitioner/21"
        }
      } ],
      "signature": [ {
        "id": "Signature/04012022",
        "type": [ {
          "system": "urn:iso-astm:E1762-95:2013",
          "code": "1.2.840.10065.1.12.1.5",
          "display": "Verification Signature"
        } ],
        "when": "2022-04-06T11:26:04.471+02:00",
        "who": {
          "reference": "Practitioner/21"
        },
        "targetFormat": "json",
        "sigFormat": "application/jose",
        "data": "ZW1wdHk="
      } ]
    }
  } ]
}