{
  "resourceType": "Bundle",
  "id": "7338251",
  "type": "collection",
  "timestamp": "2022-07-05T10:57:25.597+02:00",
  "entry": [ {
    "fullUrl": "http://interopEHRate.eu/fhir-resource/Patient/3466",
    "resource": {
      "resourceType": "Patient",
      "id": "3466",
      "meta": {
        "profile": [ "http://interopehrate.eu/fhir/StructureDefinition/Patient-IEHR" ]
      },
      "language": "it-IT",
      "identifier": [ {
        "system": "http://interopEHRate.eu/fhir-resource/",
        "value": "Patient/MS01"
      } ],
      "name": [ {
        "family": "Smith",
        "given": [ "Markus" ]
      } ],
      "gender": "male",
      "birthDate": "2013-12-05",
      "address": [ {
        "use": "home",
        "type": "physical",
        "city": "Rome",
        "country": "ITA"
      } ],
      "generalPractitioner": [ {
        "reference": "Organization/34432"
      } ]
    }
  }, {
    "fullUrl": "http://interopEHRate.eu/fhir-resource/Medication/4749",
    "resource": {
      "resourceType": "Medication",
      "id": "4749",
      "meta": {
        "profile": [ "http://interopehrate.eu/fhir/StructureDefinition/Medication-IEHR" ]
      },
      "code": {
        "coding": [ {
          "system": "http://www.whocc.no/atc",
          "code": "C03CA01",
          "display": "furosemide",
          "_display": {
            "extension": [ {
              "url": "http://hl7.org/fhir/StructureDefinition/translation",
              "extension": [ {
                "url": "lang",
                "valueCode": "it-IT"
              }, {
                "url": "content",
                "valueString": "Furosemide (Lasix)"
              } ]
            } ]
          }
        } ]
      },
      "form": {
        "coding": [ {
          "system": "http://standardterms.edqm.eu",
          "code": "10219000",
          "display": "Tablet"
        } ]
      },
      "amount": {
        "numerator": {
          "value": 25,
          "unit": "mg",
          "system": "http://unitsofmeasure.org",
          "code": "mg"
        },
        "denominator": {
          "value": 1,
          "unit": "tablet",
          "system": "http://unitsofmeasure.org",
          "code": "{tablet}"
        }
      }
    }
  }, {
    "fullUrl": "http://interopEHRate.eu/fhir-resource/Medication/5820",
    "resource": {
      "resourceType": "Medication",
      "id": "5820",
      "meta": {
        "profile": [ "http://interopehrate.eu/fhir/StructureDefinition/Medication-IEHR" ]
      },
      "code": {
        "coding": [ {
          "system": "http://www.whocc.no/atc",
          "code": "C07BB07",
          "display": "bisoprolol and thiazides",
          "_display": {
            "extension": [ {
              "url": "http://hl7.org/fhir/StructureDefinition/translation",
              "extension": [ {
                "url": "lang",
                "valueCode": "it-IT"
              }, {
                "url": "content",
                "valueString": "Bisoprololo (Bisoprololo san)"
              } ]
            } ]
          }
        } ]
      },
      "form": {
        "coding": [ {
          "system": "http://standardterms.edqm.eu",
          "code": "10219000",
          "display": "Tablet"
        } ]
      },
      "amount": {
        "numerator": {
          "value": 3.75,
          "unit": "mg",
          "system": "http://unitsofmeasure.org",
          "code": "mg"
        },
        "denominator": {
          "value": 1,
          "unit": "tablet",
          "system": "http://unitsofmeasure.org",
          "code": "{tablet}"
        }
      }
    }
  }, {
    "fullUrl": "http://interopEHRate.eu/fhir-resource/Medication/4963",
    "resource": {
      "resourceType": "Medication",
      "id": "4963",
      "meta": {
        "profile": [ "http://interopehrate.eu/fhir/StructureDefinition/Medication-IEHR" ]
      },
      "code": {
        "coding": [ {
          "system": "http://www.whocc.no/atc",
          "code": "B01AX05",
          "display": "fondaparinux",
          "_display": {
            "extension": [ {
              "url": "http://hl7.org/fhir/StructureDefinition/translation",
              "extension": [ {
                "url": "lang",
                "valueCode": "it-IT"
              }, {
                "url": "content",
                "valueString": "Fondaparinux (Arixtra)"
              } ]
            } ]
          }
        } ]
      },
      "form": {
        "coding": [ {
          "system": "http://standardterms.edqm.eu",
          "code": "50060300",
          "display": "Solution for injection in pre-filled syringe"
        } ]
      },
      "amount": {
        "numerator": {
          "value": 2.5,
          "unit": "mg",
          "system": "http://unitsofmeasure.org",
          "code": "mg"
        },
        "denominator": {
          "value": 1,
          "unit": "syringe",
          "system": "http://unitsofmeasure.org",
          "code": "{syringe}"
        }
      }
    }
  }, {
    "fullUrl": "http://interopEHRate.eu/fhir-resource/Medication/9165",
    "resource": {
      "resourceType": "Medication",
      "id": "9165",
      "meta": {
        "profile": [ "http://interopehrate.eu/fhir/StructureDefinition/Medication-IEHR" ]
      },
      "code": {
        "coding": [ {
          "system": "http://www.whocc.no/atc",
          "code": "A02BD04",
          "display": "pantoprazole, amoxicillin and clarithromycin",
          "_display": {
            "extension": [ {
              "url": "http://hl7.org/fhir/StructureDefinition/translation",
              "extension": [ {
                "url": "lang",
                "valueCode": "it-IT"
              }, {
                "url": "content",
                "valueString": "Pantoprazolo (Pantorc)"
              } ]
            } ]
          }
        } ]
      },
      "form": {
        "coding": [ {
          "system": "http://standardterms.edqm.eu",
          "code": "10219000",
          "display": "Tablet"
        } ]
      },
      "amount": {
        "numerator": {
          "value": 20,
          "unit": "mg",
          "system": "http://unitsofmeasure.org",
          "code": "mg"
        },
        "denominator": {
          "value": 1,
          "unit": "tablet",
          "system": "http://unitsofmeasure.org",
          "code": "{tablet}"
        }
      }
    }
  }, {
    "fullUrl": "http://interopEHRate.eu/fhir-resource/Medication/9149",
    "resource": {
      "resourceType": "Medication",
      "id": "9149",
      "meta": {
        "profile": [ "http://interopehrate.eu/fhir/StructureDefinition/Medication-IEHR" ]
      },
      "code": {
        "coding": [ {
          "system": "http://www.whocc.no/atc",
          "code": "N06AB05",
          "display": "paroxetine",
          "_display": {
            "extension": [ {
              "url": "http://hl7.org/fhir/StructureDefinition/translation",
              "extension": [ {
                "url": "lang",
                "valueCode": "it-IT"
              }, {
                "url": "content",
                "valueString": "Paroxetina (Paroxetina eg)"
              } ]
            } ]
          }
        } ]
      },
      "form": {
        "coding": [ {
          "system": "http://standardterms.edqm.eu",
          "code": "10219000",
          "display": "Tablet"
        } ]
      },
      "amount": {
        "numerator": {
          "value": 20,
          "unit": "mg",
          "system": "http://unitsofmeasure.org",
          "code": "mg"
        },
        "denominator": {
          "value": 1,
          "unit": "tablet",
          "system": "http://unitsofmeasure.org",
          "code": "{tablet}"
        }
      }
    }
  }, {
    "fullUrl": "http://interopEHRate.eu/fhir-resource/MedicationStatement/7347",
    "resource": {
      "resourceType": "MedicationStatement",
      "id": "7347",
      "meta": {
        "profile": [ "http://interopehrate.eu/fhir/StructureDefinition/MedicationStatement-IEHR" ]
      },
      "status": "active",
      "medicationReference": {
        "reference": "Medication/4749"
      },
      "subject": {
        "reference": "Patient/3466"
      },
      "effectiveDateTime": "2022-07-05T10:57:41+02:00",
      "dosage": [ {
        "text": "1 pill at 08:00 AM",
        "timing": {
          "repeat": {
            "frequency": 1,
            "period": 1,
            "periodUnit": "d",
            "timeOfDay": [ "08:00:00" ]
          }
        },
        "route": {
          "coding": [ {
            "system": "http://standardterms.edqm.eu",
            "code": "20053000",
            "display": "Oral use"
          } ]
        }
      } ]
    }
  }, {
    "fullUrl": "http://interopEHRate.eu/fhir-resource/MedicationStatement/7358",
    "resource": {
      "resourceType": "MedicationStatement",
      "id": "7358",
      "meta": {
        "profile": [ "http://interopehrate.eu/fhir/StructureDefinition/MedicationStatement-IEHR" ]
      },
      "status": "active",
      "medicationReference": {
        "reference": "Medication/5820"
      },
      "subject": {
        "reference": "Patient/3466"
      },
      "effectiveDateTime": "2022-07-05T10:57:43+02:00",
      "dosage": [ {
        "text": "1 pill at 08:00 AM, 1 pill at 08:00 PM",
        "timing": {
          "repeat": {
            "frequency": 2,
            "period": 1,
            "periodUnit": "d",
            "timeOfDay": [ "08:00:00", "20:00:00" ]
          }
        },
        "route": {
          "coding": [ {
            "system": "http://standardterms.edqm.eu",
            "code": "20053000",
            "display": "Oral use"
          } ]
        }
      } ]
    }
  }, {
    "fullUrl": "http://interopEHRate.eu/fhir-resource/MedicationStatement/7349",
    "resource": {
      "resourceType": "MedicationStatement",
      "id": "7349",
      "meta": {
        "profile": [ "http://interopehrate.eu/fhir/StructureDefinition/MedicationStatement-IEHR" ]
      },
      "status": "active",
      "medicationReference": {
        "reference": "Medication/4963"
      },
      "subject": {
        "reference": "Patient/3466"
      },
      "effectiveDateTime": "2022-07-05T10:57:46+02:00",
      "dosage": [ {
        "text": "1 subcutaneous injection at 08:00 PM up to INR >2, then stop",
        "timing": {
          "repeat": {
            "frequency": 1,
            "period": 1,
            "periodUnit": "d",
            "timeOfDay": [ "20:00:00" ]
          }
        },
        "route": {
          "coding": [ {
            "system": "http://standardterms.edqm.eu",
            "code": "20066000",
            "display": "Subcutaneous use"
          } ]
        }
      } ]
    }
  }, {
    "fullUrl": "http://interopEHRate.eu/fhir-resource/MedicationStatement/7301",
    "resource": {
      "resourceType": "MedicationStatement",
      "id": "7301",
      "meta": {
        "profile": [ "http://interopehrate.eu/fhir/StructureDefinition/MedicationStatement-IEHR" ]
      },
      "status": "active",
      "medicationReference": {
        "reference": "Medication/9165"
      },
      "subject": {
        "reference": "Patient/3466"
      },
      "effectiveDateTime": "2022-07-05T10:57:48+02:00",
      "dosage": [ {
        "text": "1 pill at 08:00 PM",
        "timing": {
          "repeat": {
            "frequency": 1,
            "period": 1,
            "periodUnit": "d",
            "timeOfDay": [ "20:00:00" ]
          }
        },
        "route": {
          "coding": [ {
            "system": "http://standardterms.edqm.eu",
            "code": "20053000",
            "display": "Oral use"
          } ]
        }
      } ]
    }
  }, {
    "fullUrl": "http://interopEHRate.eu/fhir-resource/MedicationStatement/73014",
    "resource": {
      "resourceType": "MedicationStatement",
      "id": "73014",
      "meta": {
        "profile": [ "http://interopehrate.eu/fhir/StructureDefinition/MedicationStatement-IEHR" ]
      },
      "status": "active",
      "medicationReference": {
        "reference": "Medication/9149"
      },
      "subject": {
        "reference": "Patient/3466"
      },
      "effectiveDateTime": "2022-07-05T10:57:49+02:00",
      "dosage": [ {
        "text": "1 pill at 08:00 AM",
        "timing": {
          "repeat": {
            "frequency": 1,
            "period": 1,
            "periodUnit": "d",
            "timeOfDay": [ "08:00:00" ]
          }
        },
        "route": {
          "coding": [ {
            "system": "http://standardterms.edqm.eu",
            "code": "20053000",
            "display": "Oral use"
          } ]
        }
      } ]
    }
  } ]
}