{
  "resourceType": "Bundle",
  "id": "321457",
  "type": "collection",
  "timestamp": "2022-04-04T15:00:08.897+02:00",
  "entry": [ {
    "fullUrl": "http://interopehrate.eu/fhir/Resources/DocumentReference/3456",
    "resource": {
      "resourceType": "DocumentReference",
      "id": "3456",
      "meta": {
        "profile": [ "http://interopehrate.eu/fhir/StructureDefinition/DocumentReference-IEHR" ]
      },
      "language": "en",
      "extension": [ {
        "url": "http://interopehrate.eu/fhir/StructureDefinition/ProvenanceExtension-IEHR",
        "valueReference": {
          "reference": "Provenance/10"
        }
      } ],
      "identifier": [ {
        "system": "urn:oid:1.11.111.1.1.11.111.11",
        "value": "123321ab-123321ab"
      } ],
      "status": "current",
      "docStatus": "final",
      "type": {
        "coding": [ {
          "system": "http://loinc.org",
          "code": "34099-2",
          "display": "Cardiology Consult note"
        } ]
      },
      "category": [ {
        "coding": [ {
          "system": "http://loinc.org",
          "code": "11488-4",
          "display": "Consult Note"
        } ]
      } ],
      "subject": {
        "reference": "Patient/3466"
      },
      "date": "2022-04-04T15:00:08.898+02:00",
      "author": [ {
        "reference": "Practitioner/21"
      } ],
      "custodian": {
        "reference": "Organization/34432"
      },
      "description": "This is an example for the use of a DocumentReference",
      "content": [ {
        "attachment": {
          "contentType": "application/pdf",
          "language": "en",
          "data": "",
          "title": "ExamplePDF",
          "creation": "2020-06-25"
        },
        "format": {
          "system": "http://ihe.net/fhir/ValueSet/IHE.FormatCode.codesystem",
          "code": "urn:ihe:iti:xds:2017:mimeTypeSufficient",
          "display": "mimeType Sufficient"
        }
      } ],
      "context": {
        "period": {
          "start": "2022-04-04"
        },
        "practiceSetting": {
          "coding": [ {
            "system": "http://snomed.info/sct",
            "code": "394579002",
            "display": "Cardiology"
          } ]
        }
      }
    }
  }, {
    "fullUrl": "http://interopehrate.eu/fhir/Resources/Patient/3466",
    "resource": {
      "resourceType": "Patient",
      "id": "3466",
      "meta": {
        "profile": [ "http://interopehrate.eu/fhir/StructureDefinition/Patient-IEHR" ]
      },
      "language": "it-IT",
      "identifier": [ {
        "system": "http://interopEHRate.eu/fhir-resource/",
        "value": "Patient/MS01"
      } ],
      "name": [ {
        "family": "Smith",
        "given": [ "Markus" ]
      } ],
      "gender": "male",
      "birthDate": "2013-12-05",
      "address": [ {
        "use": "home",
        "type": "physical",
        "city": "Rome",
        "country": "ITA"
      } ],
      "generalPractitioner": [ {
        "reference": "Organization/34432"
      } ]
    }
  }, {
    "fullUrl": "http://interopehrate.eu/fhir/Resources/Organization/34432",
    "resource": {
      "resourceType": "Organization",
      "id": "34432",
      "meta": {
        "profile": [ "http://hl7.org/fhir/uv/ips/StructureDefinition/Organization-uv-ips" ]
      },
      "language": "it-IT",
      "identifier": [ {
        "system": "http://interopEHRate.eu/fhir-resource/",
        "value": "Organization/FTGM01"
      } ],
      "name": "Fondazione Gabriele Monasterio",
      "address": [ {
        "line": [ "Via Giuseppe Moruzzi 1" ],
        "city": "Pisa",
        "country": "IT"
      } ]
    }
  }, {
    "fullUrl": "http://interopehrate.eu/fhir/Resources/Practitioner/21",
    "resource": {
      "resourceType": "Practitioner",
      "id": "21",
      "meta": {
        "profile": [ "http://hl7.org/fhir/uv/ips/StructureDefinition/Practitioner-uv-ips" ]
      },
      "language": "it-IT",
      "identifier": [ {
        "system": "http://interopEHRate.eu/fhir-resource/",
        "value": "Practitioner/MA01"
      } ],
      "name": [ {
        "family": "Antonio",
        "given": [ "Mark" ]
      } ]
    }
  } ]
}