{
  "resourceType": "Bundle",
  "id": "10121314",
  "meta": {
    "profile": [ "http://interopehrate.eu/fhir/StructureDefinition/Bundle-IEHR" ]
  },
  "identifier": {
    "system": "urn:oid:1.11.111.1.1.11.111.11",
    "value": "123321ab-123321ab"
  },
  "type": "document",
  "timestamp": "2022-07-14T12:03:52.023+02:00",
  "entry": [ {
    "fullUrl": "http://interopEHRate.eu/fhir-resource/Composition/158355",
    "resource": {
      "resourceType": "Composition",
      "id": "158355",
      "meta": {
        "profile": [ "http://interopehrate.eu/fhir/StructureDefinition/Composition-IEHR" ]
      },
      "extension": [ {
        "url": "http://interopehrate.eu/fhir/StructureDefinition/ProvenanceExtension-IEHR",
        "valueReference": {
          "reference": "Provenance/1"
        }
      } ],
      "status": "preliminary",
      "type": {
        "coding": [ {
          "system": "http://loinc.org",
          "code": "60591-5"
        } ]
      },
      "subject": {
        "reference": "Patient/3466"
      },
      "date": "2021-10-04",
      "author": [ {
        "reference": "Practitioner/21"
      }, {
        "reference": "Organization/34432"
      } ],
      "title": "International Patient Summary",
      "section": [ {
        "title": "Allergies",
        "code": {
          "coding": [ {
            "system": "http://loinc.org",
            "code": "48765-2",
            "display": "Allergies and adverse reactions Document"
          } ]
        },
        "text": {
          "status": "extensions",
          "div": "<div xmlns=\"http://www.w3.org/1999/xhtml\">This is the allergy section</div>"
        },
        "entry": [ {
          "reference": "AllergyIntolerance/1111"
        }, {
          "reference": "AllergyIntolerance/1112"
        }, {
          "reference": "AllergyIntolerance/1113"
        }, {
          "reference": "AllergyIntolerance/1114"
        }, {
          "reference": "AllergyIntolerance/1115"
        } ]
      }, {
        "title": "Medication Section",
        "code": {
          "coding": [ {
            "system": "http://loinc.org",
            "code": "10160-0",
            "display": "History of Medication use Narrative"
          } ]
        },
        "text": {
          "status": "extensions",
          "div": "<div xmlns=\"http://www.w3.org/1999/xhtml\">This is the medications section</div>"
        },
        "entry": [ {
          "reference": "MedicationStatement/7347"
        }, {
          "reference": "MedicationStatement/7358"
        }, {
          "reference": "MedicationStatement/7349"
        }, {
          "reference": "MedicationStatement/7301"
        }, {
          "reference": "MedicationStatement/73014"
        } ]
      }, {
        "title": "Problems Section",
        "code": {
          "coding": [ {
            "system": "http://loinc.org",
            "code": "11450-4",
            "display": "Problem list - Reported"
          } ]
        },
        "text": {
          "status": "extensions",
          "div": "<div xmlns=\"http://www.w3.org/1999/xhtml\">This is the problems section</div>"
        },
        "entry": [ {
          "reference": "Condition/1111"
        }, {
          "reference": "Condition/1112"
        }, {
          "reference": "Condition/1114"
        }, {
          "reference": "Condition/1115"
        }, {
          "reference": "Condition/1116"
        }, {
          "reference": "Condition/1117"
        } ]
      }, {
        "title": "History of Past Illness",
        "code": {
          "coding": [ {
            "system": "http://loinc.org",
            "code": "11348-0",
            "display": "History of Past illness Narrative"
          } ]
        },
        "text": {
          "status": "extensions",
          "div": "<div xmlns=\"http://www.w3.org/1999/xhtml\">This is the history of past illnesses section</div>"
        },
        "entry": [ {
          "reference": "Condition/1113"
        } ]
      }, {
        "title": "VitalSign Section",
        "code": {
          "coding": [ {
            "system": "http://loinc.org",
            "code": "8716-3",
            "display": "Vital signs"
          } ]
        },
        "text": {
          "status": "extensions",
          "div": "<div xmlns=\"http://www.w3.org/1999/xhtml\">This is the vital sign section</div>"
        }
      }, {
        "title": "Result Section",
        "code": {
          "coding": [ {
            "system": "http://loinc.org",
            "code": "30954-2",
            "display": "Relevant diagnostic tests/laboratory data Narrative"
          } ]
        },
        "text": {
          "status": "extensions",
          "div": "<div xmlns=\"http://www.w3.org/1999/xhtml\">This is the result section</div>"
        },
        "entry": [ {
          "reference": "DiagnosticReport/3111"
        } ]
      }, {
        "title": "History of Procedures Section",
        "code": {
          "coding": [ {
            "system": "http://loinc.org",
            "code": "47519-4",
            "display": "History of Procedures Document"
          } ]
        },
        "text": {
          "status": "extensions",
          "div": "<div xmlns=\"http://www.w3.org/1999/xhtml\">This is the history of procedures section</div>"
        },
        "entry": [ {
          "reference": "Procedure/1111"
        }, {
          "reference": "Procedure/1112"
        } ]
      } ]
    }
  }, {
    "fullUrl": "http://interopEHRate.eu/fhir-resource/Patient/3466",
    "resource": {
      "resourceType": "Patient",
      "id": "3466",
      "meta": {
        "profile": [ "http://interopehrate.eu/fhir/StructureDefinition/Patient-IEHR" ]
      },
      "language": "it-IT",
      "identifier": [ {
        "system": "http://interopEHRate.eu/fhir-resource/",
        "value": "Patient/MS01"
      } ],
      "name": [ {
        "family": "Smith",
        "given": [ "Markus" ]
      } ],
      "gender": "male",
      "birthDate": "2013-12-05",
      "address": [ {
        "use": "home",
        "type": "physical",
        "city": "Rome",
        "country": "ITA"
      } ],
      "generalPractitioner": [ {
        "reference": "Organization/34432"
      } ]
    }
  }, {
    "fullUrl": "http://interopEHRate.eu/fhir-resource/Organization/34432",
    "resource": {
      "resourceType": "Organization",
      "id": "34432",
      "meta": {
        "profile": [ "http://hl7.org/fhir/uv/ips/StructureDefinition/Organization-uv-ips" ]
      },
      "language": "it-IT",
      "identifier": [ {
        "system": "http://interopEHRate.eu/fhir-resource/",
        "value": "Organization/FTGM01"
      } ],
      "name": "Fondazione Gabriele Monasterio",
      "address": [ {
        "line": [ "Via Giuseppe Moruzzi 1" ],
        "city": "Pisa",
        "country": "IT"
      } ]
    }
  }, {
    "fullUrl": "http://interopEHRate.eu/fhir-resource/Practitioner/21",
    "resource": {
      "resourceType": "Practitioner",
      "id": "21",
      "meta": {
        "profile": [ "http://hl7.org/fhir/uv/ips/StructureDefinition/Practitioner-uv-ips" ]
      },
      "language": "it-IT",
      "identifier": [ {
        "system": "http://interopEHRate.eu/fhir-resource/",
        "value": "Practitioner/MA01"
      } ],
      "name": [ {
        "family": "Antonio",
        "given": [ "Mark" ]
      } ]
    }
  }, {
    "fullUrl": "http://interopEHRate.eu/fhir-resource/AllergyIntolerance/1111",
    "resource": {
      "resourceType": "AllergyIntolerance",
      "id": "1111",
      "meta": {
        "profile": [ "http://interopehrate.eu/fhir/StructureDefinition/AllergyIntolerance-IEHR" ]
      },
      "clinicalStatus": {
        "coding": [ {
          "system": "http://terminology.hl7.org/CodeSystem/allergyintolerance-clinical",
          "code": "active",
          "display": "Active"
        } ]
      },
      "verificationStatus": {
        "coding": [ {
          "system": "http://terminology.hl7.org/CodeSystem/allergyintolerance-verification",
          "code": "confirmed",
          "display": "Confirmed"
        } ]
      },
      "type": "allergy",
      "category": [ "medication" ],
      "criticality": "high",
      "code": {
        "coding": [ {
          "system": "http://snomed.info/sct",
          "code": "410652009",
          "display": "Blood product (product)"
        } ]
      },
      "patient": {
        "reference": "Patient/3466"
      },
      "onsetDateTime": "2021-09-24",
      "reaction": [ {
        "manifestation": [ {
          "coding": [ {
            "system": "http://snomed.info/sct",
            "code": "39579001",
            "display": "Anaphylaxis (disorder)"
          } ]
        } ]
      } ]
    }
  }, {
    "fullUrl": "http://interopEHRate.eu/fhir-resource/AllergyIntolerance/1112",
    "resource": {
      "resourceType": "AllergyIntolerance",
      "id": "1112",
      "meta": {
        "profile": [ "http://interopehrate.eu/fhir/StructureDefinition/AllergyIntolerance-IEHR" ]
      },
      "clinicalStatus": {
        "coding": [ {
          "system": "http://terminology.hl7.org/CodeSystem/allergyintolerance-clinical",
          "code": "active",
          "display": "Active"
        } ]
      },
      "verificationStatus": {
        "coding": [ {
          "system": "http://terminology.hl7.org/CodeSystem/allergyintolerance-verification",
          "code": "confirmed",
          "display": "Confirmed"
        } ]
      },
      "type": "intolerance",
      "category": [ "medication" ],
      "criticality": "low",
      "code": {
        "coding": [ {
          "system": "http://snomed.info/sct",
          "code": "13132007",
          "display": "Product containing dextran (medicinal product)"
        } ]
      },
      "patient": {
        "reference": "Patient/3466"
      },
      "onsetDateTime": "2021-03-21",
      "reaction": [ {
        "manifestation": [ {
          "coding": [ {
            "system": "http://snomed.info/sct",
            "code": "23924001",
            "display": "Tight chest (finding)"
          } ]
        } ]
      } ]
    }
  }, {
    "fullUrl": "http://interopEHRate.eu/fhir-resource/AllergyIntolerance/1113",
    "resource": {
      "resourceType": "AllergyIntolerance",
      "id": "1113",
      "meta": {
        "profile": [ "http://interopehrate.eu/fhir/StructureDefinition/AllergyIntolerance-IEHR" ]
      },
      "clinicalStatus": {
        "coding": [ {
          "system": "http://terminology.hl7.org/CodeSystem/allergyintolerance-clinical",
          "code": "active",
          "display": "Active"
        } ]
      },
      "verificationStatus": {
        "coding": [ {
          "system": "http://terminology.hl7.org/CodeSystem/allergyintolerance-verification",
          "code": "confirmed",
          "display": "Confirmed"
        } ]
      },
      "type": "intolerance",
      "category": [ "food" ],
      "criticality": "low",
      "code": {
        "coding": [ {
          "system": "http://snomed.info/sct",
          "code": "102261002",
          "display": "Strawberry (substance)"
        } ]
      },
      "patient": {
        "reference": "Patient/3466"
      },
      "onsetDateTime": "2004-10-04",
      "reaction": [ {
        "manifestation": [ {
          "coding": [ {
            "system": "http://snomed.info/sct",
            "code": "23924001",
            "display": "Tight chest (finding)"
          } ]
        } ]
      } ]
    }
  }, {
    "fullUrl": "http://interopEHRate.eu/fhir-resource/AllergyIntolerance/1114",
    "resource": {
      "resourceType": "AllergyIntolerance",
      "id": "1114",
      "meta": {
        "profile": [ "http://interopehrate.eu/fhir/StructureDefinition/AllergyIntolerance-IEHR" ]
      },
      "clinicalStatus": {
        "coding": [ {
          "system": "http://terminology.hl7.org/CodeSystem/allergyintolerance-clinical",
          "code": "active",
          "display": "Active"
        } ]
      },
      "verificationStatus": {
        "coding": [ {
          "system": "http://terminology.hl7.org/CodeSystem/allergyintolerance-verification",
          "code": "confirmed",
          "display": "Confirmed"
        } ]
      },
      "type": "intolerance",
      "category": [ "environment" ],
      "criticality": "low",
      "code": {
        "coding": [ {
          "system": "http://snomed.info/sct",
          "code": "256260009",
          "display": "Tree and shrub pollen (substance)"
        } ]
      },
      "patient": {
        "reference": "Patient/3466"
      },
      "onsetDateTime": "2017-07-04",
      "reaction": [ {
        "manifestation": [ {
          "coding": [ {
            "system": "http://snomed.info/sct",
            "code": "49727002",
            "display": "Cough (finding)"
          } ]
        } ]
      } ]
    }
  }, {
    "fullUrl": "http://interopEHRate.eu/fhir-resource/AllergyIntolerance/1115",
    "resource": {
      "resourceType": "AllergyIntolerance",
      "id": "1115",
      "meta": {
        "profile": [ "http://interopehrate.eu/fhir/StructureDefinition/AllergyIntolerance-IEHR" ]
      },
      "clinicalStatus": {
        "coding": [ {
          "system": "http://terminology.hl7.org/CodeSystem/allergyintolerance-clinical",
          "code": "active",
          "display": "Active"
        } ]
      },
      "verificationStatus": {
        "coding": [ {
          "system": "http://terminology.hl7.org/CodeSystem/allergyintolerance-verification",
          "code": "confirmed",
          "display": "Confirmed"
        } ]
      },
      "type": "intolerance",
      "category": [ "biologic" ],
      "criticality": "high",
      "code": {
        "coding": [ {
          "system": "http://snomed.info/sct",
          "code": "3526007",
          "display": "Rabies vaccine, human (product)"
        }, {
          "system": "http://snomed.info/sct",
          "code": "256260009",
          "display": "Tree and shrub pollen (substance)"
        } ]
      },
      "patient": {
        "reference": "Patient/3466"
      },
      "onsetDateTime": "2020-11-11",
      "reaction": [ {
        "manifestation": [ {
          "coding": [ {
            "system": "http://snomed.info/sct",
            "code": "698247007",
            "display": "Cardiac arrhythmia (disorder)"
          } ]
        } ]
      } ]
    }
  }, {
    "fullUrl": "http://interopEHRate.eu/fhir-resource/MedicationStatement/7347",
    "resource": {
      "resourceType": "MedicationStatement",
      "id": "7347",
      "meta": {
        "profile": [ "http://interopehrate.eu/fhir/StructureDefinition/MedicationStatement-IEHR" ]
      },
      "status": "active",
      "medicationReference": {
        "reference": "Medication/4749"
      },
      "subject": {
        "reference": "Patient/3466"
      },
      "effectiveDateTime": "2022-07-14T12:04:15+02:00",
      "dosage": [ {
        "text": "1 pill at 08:00 AM",
        "timing": {
          "repeat": {
            "frequency": 1,
            "period": 1,
            "periodUnit": "d",
            "timeOfDay": [ "08:00:00" ]
          }
        },
        "route": {
          "coding": [ {
            "system": "http://standardterms.edqm.eu",
            "code": "20053000",
            "display": "Oral use"
          } ]
        }
      } ]
    }
  }, {
    "fullUrl": "http://interopEHRate.eu/fhir-resource/MedicationStatement/7358",
    "resource": {
      "resourceType": "MedicationStatement",
      "id": "7358",
      "meta": {
        "profile": [ "http://interopehrate.eu/fhir/StructureDefinition/MedicationStatement-IEHR" ]
      },
      "status": "active",
      "medicationReference": {
        "reference": "Medication/5820"
      },
      "subject": {
        "reference": "Patient/3466"
      },
      "effectiveDateTime": "2022-07-14T12:04:16+02:00",
      "dosage": [ {
        "text": "1 pill at 08:00 AM, 1 pill at 08:00 PM",
        "timing": {
          "repeat": {
            "frequency": 2,
            "period": 1,
            "periodUnit": "d",
            "timeOfDay": [ "08:00:00", "20:00:00" ]
          }
        },
        "route": {
          "coding": [ {
            "system": "http://standardterms.edqm.eu",
            "code": "20053000",
            "display": "Oral use"
          } ]
        }
      } ]
    }
  }, {
    "fullUrl": "http://interopEHRate.eu/fhir-resource/MedicationStatement/7349",
    "resource": {
      "resourceType": "MedicationStatement",
      "id": "7349",
      "meta": {
        "profile": [ "http://interopehrate.eu/fhir/StructureDefinition/MedicationStatement-IEHR" ]
      },
      "status": "active",
      "medicationReference": {
        "reference": "Medication/4963"
      },
      "subject": {
        "reference": "Patient/3466"
      },
      "effectiveDateTime": "2022-07-14T12:04:17+02:00",
      "dosage": [ {
        "text": "1 subcutaneous injection at 08:00 PM up to INR >2, then stop",
        "timing": {
          "repeat": {
            "frequency": 1,
            "period": 1,
            "periodUnit": "d",
            "timeOfDay": [ "20:00:00" ]
          }
        },
        "route": {
          "coding": [ {
            "system": "http://standardterms.edqm.eu",
            "code": "20066000",
            "display": "Subcutaneous use"
          } ]
        }
      } ]
    }
  }, {
    "fullUrl": "http://interopEHRate.eu/fhir-resource/MedicationStatement/7301",
    "resource": {
      "resourceType": "MedicationStatement",
      "id": "7301",
      "meta": {
        "profile": [ "http://interopehrate.eu/fhir/StructureDefinition/MedicationStatement-IEHR" ]
      },
      "status": "active",
      "medicationReference": {
        "reference": "Medication/9165"
      },
      "subject": {
        "reference": "Patient/3466"
      },
      "effectiveDateTime": "2022-07-14T12:04:18+02:00",
      "dosage": [ {
        "text": "1 pill at 08:00 PM",
        "timing": {
          "repeat": {
            "frequency": 1,
            "period": 1,
            "periodUnit": "d",
            "timeOfDay": [ "20:00:00" ]
          }
        },
        "route": {
          "coding": [ {
            "system": "http://standardterms.edqm.eu",
            "code": "20053000",
            "display": "Oral use"
          } ]
        }
      } ]
    }
  }, {
    "fullUrl": "http://interopEHRate.eu/fhir-resource/MedicationStatement/73014",
    "resource": {
      "resourceType": "MedicationStatement",
      "id": "73014",
      "meta": {
        "profile": [ "http://interopehrate.eu/fhir/StructureDefinition/MedicationStatement-IEHR" ]
      },
      "status": "active",
      "medicationReference": {
        "reference": "Medication/9149"
      },
      "subject": {
        "reference": "Patient/3466"
      },
      "effectiveDateTime": "2022-07-14T12:04:19+02:00",
      "dosage": [ {
        "text": "1 pill at 08:00 AM",
        "timing": {
          "repeat": {
            "frequency": 1,
            "period": 1,
            "periodUnit": "d",
            "timeOfDay": [ "08:00:00" ]
          }
        },
        "route": {
          "coding": [ {
            "system": "http://standardterms.edqm.eu",
            "code": "20053000",
            "display": "Oral use"
          } ]
        }
      } ]
    }
  }, {
    "fullUrl": "http://interopEHRate.eu/fhir-resource/Condition/1111",
    "resource": {
      "resourceType": "Condition",
      "id": "1111",
      "meta": {
        "profile": [ "http://interopehrate.eu/fhir/StructureDefinition/Condition-IEHR" ]
      },
      "extension": [ {
        "url": "http://interopehrate.eu/fhir/StructureDefinition/ProvenanceExtension-IEHR",
        "valueReference": {
          "reference": "Provenance/1"
        }
      } ],
      "clinicalStatus": {
        "coding": [ {
          "system": "http://terminology.hl7.org/CodeSystem/condition-clinical",
          "code": "resolved",
          "display": "Resolved"
        } ]
      },
      "verificationStatus": {
        "coding": [ {
          "system": "http://terminology.hl7.org/CodeSystem/condition-ver-status",
          "code": "confirmed",
          "display": "Confirmed"
        } ]
      },
      "code": {
        "coding": [ {
          "system": "http://hl7.org/fhir/sid/icd-10",
          "code": "I24.9",
          "display": "Acute ischemic heart disease, unspecified"
        } ]
      },
      "subject": {
        "reference": "Patient/3466"
      },
      "onsetDateTime": "2021-03-22",
      "abatementDateTime": "2021-09-22"
    }
  }, {
    "fullUrl": "http://interopEHRate.eu/fhir-resource/Condition/1112",
    "resource": {
      "resourceType": "Condition",
      "id": "1112",
      "meta": {
        "profile": [ "http://interopehrate.eu/fhir/StructureDefinition/Condition-IEHR" ]
      },
      "extension": [ {
        "url": "http://interopehrate.eu/fhir/StructureDefinition/ProvenanceExtension-IEHR",
        "valueReference": {
          "reference": "Provenance/2"
        }
      } ],
      "clinicalStatus": {
        "coding": [ {
          "system": "http://terminology.hl7.org/CodeSystem/condition-clinical",
          "code": "active",
          "display": "Active"
        } ]
      },
      "verificationStatus": {
        "coding": [ {
          "system": "http://terminology.hl7.org/CodeSystem/condition-ver-status",
          "code": "confirmed",
          "display": "Confirmed"
        } ]
      },
      "code": {
        "coding": [ {
          "system": "http://hl7.org/fhir/sid/icd-10",
          "code": "I50.9",
          "display": "Heart Failure, Unspecified"
        } ]
      },
      "subject": {
        "reference": "Patient/3466"
      },
      "onsetDateTime": "2021-03-20"
    }
  }, {
    "fullUrl": "http://interopEHRate.eu/fhir-resource/Condition/1113",
    "resource": {
      "resourceType": "Condition",
      "id": "1113",
      "meta": {
        "profile": [ "http://interopehrate.eu/fhir/StructureDefinition/Condition-IEHR" ]
      },
      "extension": [ {
        "url": "http://interopehrate.eu/fhir/StructureDefinition/ProvenanceExtension-IEHR",
        "valueReference": {
          "reference": "Provenance/3"
        }
      } ],
      "clinicalStatus": {
        "coding": [ {
          "system": "http://terminology.hl7.org/CodeSystem/condition-clinical",
          "code": "resolved",
          "display": "resolved"
        } ]
      },
      "verificationStatus": {
        "coding": [ {
          "system": "http://terminology.hl7.org/CodeSystem/condition-ver-status",
          "code": "confirmed",
          "display": "Confirmed"
        } ]
      },
      "code": {
        "coding": [ {
          "system": "http://hl7.org/fhir/sid/icd-10",
          "code": "J44.9",
          "display": "Chronic obstructive pulmonary disease"
        } ]
      },
      "subject": {
        "reference": "Patient/3466"
      },
      "onsetDateTime": "2021-02-20",
      "abatementDateTime": "2021-09-22"
    }
  }, {
    "fullUrl": "http://interopEHRate.eu/fhir-resource/Condition/1114",
    "resource": {
      "resourceType": "Condition",
      "id": "1114",
      "meta": {
        "profile": [ "http://interopehrate.eu/fhir/StructureDefinition/Condition-IEHR" ]
      },
      "extension": [ {
        "url": "http://interopehrate.eu/fhir/StructureDefinition/ProvenanceExtension-IEHR",
        "valueReference": {
          "reference": "Provenance/4"
        }
      } ],
      "clinicalStatus": {
        "coding": [ {
          "system": "http://terminology.hl7.org/CodeSystem/condition-clinical",
          "code": "resolved",
          "display": "Resolved"
        } ]
      },
      "verificationStatus": {
        "coding": [ {
          "system": "http://terminology.hl7.org/CodeSystem/condition-ver-status",
          "code": "confirmed",
          "display": "Confirmed"
        } ]
      },
      "code": {
        "coding": [ {
          "system": "http://hl7.org/fhir/sid/icd-10",
          "code": "N18.9",
          "display": "Chronic kidney disease, unspecified"
        } ]
      },
      "subject": {
        "reference": "Patient/3466"
      },
      "onsetDateTime": "2021-02-20",
      "abatementDateTime": "2021-09-22"
    }
  }, {
    "fullUrl": "http://interopEHRate.eu/fhir-resource/Condition/1115",
    "resource": {
      "resourceType": "Condition",
      "id": "1115",
      "meta": {
        "profile": [ "http://interopehrate.eu/fhir/StructureDefinition/Condition-IEHR" ]
      },
      "extension": [ {
        "url": "http://interopehrate.eu/fhir/StructureDefinition/ProvenanceExtension-IEHR",
        "valueReference": {
          "reference": "Provenance/5"
        }
      } ],
      "clinicalStatus": {
        "coding": [ {
          "system": "http://terminology.hl7.org/CodeSystem/condition-clinical",
          "code": "active",
          "display": "Active"
        } ]
      },
      "verificationStatus": {
        "coding": [ {
          "system": "http://terminology.hl7.org/CodeSystem/condition-ver-status",
          "code": "confirmed",
          "display": "Confirmed"
        } ]
      },
      "code": {
        "coding": [ {
          "system": "http://hl7.org/fhir/sid/icd-10",
          "code": "R94.5",
          "display": "Abnormal results of liver function studies"
        } ]
      },
      "subject": {
        "reference": "Patient/3466"
      },
      "onsetDateTime": "2020-02-20"
    }
  }, {
    "fullUrl": "http://interopEHRate.eu/fhir-resource/Condition/1116",
    "resource": {
      "resourceType": "Condition",
      "id": "1116",
      "meta": {
        "profile": [ "http://interopehrate.eu/fhir/StructureDefinition/Condition-IEHR" ]
      },
      "extension": [ {
        "url": "http://interopehrate.eu/fhir/StructureDefinition/ProvenanceExtension-IEHR",
        "valueReference": {
          "reference": "Provenance/6"
        }
      } ],
      "clinicalStatus": {
        "coding": [ {
          "system": "http://terminology.hl7.org/CodeSystem/condition-clinical",
          "code": "active",
          "display": "Active"
        } ]
      },
      "verificationStatus": {
        "coding": [ {
          "system": "http://terminology.hl7.org/CodeSystem/condition-ver-status",
          "code": "confirmed",
          "display": "Confirmed"
        } ]
      },
      "code": {
        "coding": [ {
          "system": "http://hl7.org/fhir/sid/icd-10",
          "code": "C80",
          "display": "Malignant neoplasm, without specification of site"
        } ]
      },
      "subject": {
        "reference": "Patient/3466"
      },
      "onsetDateTime": "2020-06-09"
    }
  }, {
    "fullUrl": "http://interopEHRate.eu/fhir-resource/Condition/1117",
    "resource": {
      "resourceType": "Condition",
      "id": "1117",
      "meta": {
        "profile": [ "http://interopehrate.eu/fhir/StructureDefinition/Condition-IEHR" ]
      },
      "extension": [ {
        "url": "http://interopehrate.eu/fhir/StructureDefinition/ProvenanceExtension-IEHR",
        "valueReference": {
          "reference": "Provenance/7"
        }
      } ],
      "clinicalStatus": {
        "coding": [ {
          "system": "http://terminology.hl7.org/CodeSystem/condition-clinical",
          "code": "active",
          "display": "Active"
        } ]
      },
      "verificationStatus": {
        "coding": [ {
          "system": "http://terminology.hl7.org/CodeSystem/condition-ver-status",
          "code": "confirmed",
          "display": "Confirmed"
        } ]
      },
      "category": [ {
        "coding": [ {
          "system": "http://loinc.org",
          "code": "95932-0",
          "display": "Pulmonary hypertension [Class]"
        } ]
      } ],
      "code": {
        "coding": [ {
          "system": "http://hl7.org/fhir/sid/icd-10",
          "code": "I27.0",
          "display": "primary pulmonary hypertension"
        } ]
      },
      "subject": {
        "reference": "Patient/3466"
      },
      "onsetDateTime": "2021-06-09"
    }
  }, {
    "fullUrl": "http://interopEHRate.eu/fhir-resource/DiagnosticReport/3111",
    "resource": {
      "resourceType": "DiagnosticReport",
      "id": "3111",
      "meta": {
        "profile": [ "http://interopehrate.eu/fhir/StructureDefinition/DiagnosticReport-ImagingReport-IEHR" ]
      },
      "language": "en",
      "extension": [ {
        "url": "http://interopehrate.eu/fhir/StructureDefinition/ProvenanceExtension-IEHR",
        "valueReference": {
          "reference": "Provenance/1"
        }
      } ],
      "identifier": [ {
        "type": {
          "coding": [ {
            "system": "http://terminology.hl7.org/CodeSystem/v2-0203",
            "code": "PRN"
          } ]
        },
        "value": "1a2-3b4-5c6-7d8"
      } ],
      "status": "final",
      "category": [ {
        "coding": [ {
          "system": "http://terminology.hl7.org/CodeSystem/v2-0074",
          "code": "RAD",
          "display": "Radiology"
        } ]
      } ],
      "code": {
        "coding": [ {
          "system": "http://loinc.org",
          "code": "30954-2",
          "display": "Relevant diagnostic tests/laboratory data Narrative"
        } ]
      },
      "subject": {
        "reference": "Patient/3466"
      },
      "effectiveDateTime": "2022-07-14T12:04:26+02:00",
      "performer": [ {
        "reference": "Organization/34432"
      } ],
      "resultsInterpreter": [ {
        "reference": "Organization/34432"
      } ],
      "result": [ {
        "reference": "Observation/3111"
      } ],
      "imagingStudy": [ {
        "reference": "ImagingStudy/3111"
      } ]
    }
  }, {
    "fullUrl": "http://interopEHRate.eu/fhir-resource/Observation/3111",
    "resource": {
      "resourceType": "Observation",
      "id": "3111",
      "meta": {
        "profile": [ "http://interopehrate.eu/fhir/StructureDefinition/Observation-IEHR" ]
      },
      "extension": [ {
        "url": "http://interopehrate.eu/fhir/StructureDefinition/ProvenanceExtension-IEHR",
        "valueReference": {
          "reference": "Provenance/2"
        }
      } ],
      "status": "final",
      "code": {
        "coding": [ {
          "system": "http://loinc.org",
          "code": "36643-5",
          "display": "XR Chest 2 Views"
        } ]
      },
      "subject": {
        "reference": "Patient/3466"
      },
      "effectiveDateTime": "2021-09-27",
      "performer": [ {
        "reference": "Organization/34432"
      } ],
      "valueString": "Checkup after heart pacemaker surgery",
      "interpretation": [ {
        "coding": [ {
          "system": "http://terminology.hl7.org/CodeSystem/v3-ObservationInterpretation",
          "code": "N",
          "display": "Normal"
        } ]
      } ]
    }
  }, {
    "fullUrl": "http://interopEHRate.eu/fhir-resource/Procedure/1111",
    "resource": {
      "resourceType": "Procedure",
      "id": "1111",
      "meta": {
        "profile": [ "http://hl7.org/fhir/uv/ips/StructureDefinition/Procedure-uv-ips" ]
      },
      "language": "en",
      "status": "completed",
      "code": {
        "coding": [ {
          "system": "http://snomed.info/sct",
          "code": "6025007",
          "display": "Laparoscopic appendectomy"
        } ]
      },
      "subject": {
        "reference": "Patient/3466"
      },
      "performedDateTime": "2017-01-01",
      "performer": [ {
        "actor": {
          "reference": "Practitioner/21"
        }
      } ]
    }
  }, {
    "fullUrl": "http://interopEHRate.eu/fhir-resource/Procedure/1112",
    "resource": {
      "resourceType": "Procedure",
      "id": "1112",
      "meta": {
        "profile": [ "http://hl7.org/fhir/uv/ips/StructureDefinition/Procedure-uv-ips" ]
      },
      "language": "en",
      "status": "completed",
      "code": {
        "coding": [ {
          "system": "http://snomed.info/sct",
          "code": "173422009",
          "display": "Tonsillectomy"
        } ]
      },
      "subject": {
        "reference": "Patient/3466"
      },
      "performedDateTime": "2016-01-01",
      "performer": [ {
        "actor": {
          "reference": "Practitioner/21"
        }
      } ]
    }
  } ],
  "signature": {
    "id": "Signature/04012022",
    "type": [ {
      "system": "urn:iso-astm:E1762-95:2013",
      "code": "1.2.840.10065.1.12.1.5",
      "display": "Verification Signature"
    } ],
    "when": "2022-07-14T12:03:52.026+02:00",
    "who": {
      "reference": "Practitioner/21"
    },
    "targetFormat": "json",
    "sigFormat": "application/jose",
    "data": "ZW1wdHk="
  }
}