{
  "resourceType": "Bundle",
  "id": "125482",
  "meta": {
    "profile": [ "http://interopehrate.eu/fhir/StructureDefinition/Bundle-IEHR" ]
  },
  "type": "collection",
  "timestamp": "2022-05-16T16:24:43.968+02:00",
  "entry": [ {
    "fullUrl": "http://interopEHRate.eu/fhir-resource/Composition/3970941",
    "resource": {
      "resourceType": "Composition",
      "id": "3970941",
      "meta": {
        "profile": [ "http://interopehrate.eu/fhir/StructureDefinition/Composition-IEHR" ]
      },
      "extension": [ {
        "url": "http://interopehrate.eu/fhir/StructureDefinition/ProvenanceExtension-IEHR",
        "valueReference": {
          "reference": "Provenance/12"
        }
      } ],
      "status": "final",
      "type": {
        "coding": [ {
          "system": "http://loinc.org",
          "code": "34133-9",
          "display": "Summary of episode note"
        } ]
      },
      "encounter": {
        "reference": "Encounter/363534"
      },
      "date": "2021-10-18",
      "author": [ {
        "reference": "Organization/34432"
      } ],
      "title": "Visit Report MS01, 18.10.2021",
      "confidentiality": "N",
      "section": [ {
        "extension": [ {
          "url": "http://interopehrate.eu/fhir/StructureDefinition/ConfidentialityExtension-IEHR",
          "valueCodeableConcept": {
            "coding": [ {
              "system": "http://terminology.hl7.org/CodeSystem/v3-Confidentiality",
              "code": "N",
              "display": "normal"
            } ]
          }
        } ],
        "code": {
          "coding": [ {
            "system": "http://loinc.org",
            "code": "11450-4",
            "display": "Problem list - Reported"
          } ]
        },
        "entry": [ {
          "reference": "Condition/48239"
        }, {
          "reference": "Condition/482343"
        } ]
      }, {
        "extension": [ {
          "url": "http://interopehrate.eu/fhir/StructureDefinition/ConfidentialityExtension-IEHR",
          "valueCodeableConcept": {
            "coding": [ {
              "system": "http://terminology.hl7.org/CodeSystem/v3-Confidentiality",
              "code": "N",
              "display": "normal"
            } ]
          }
        } ],
        "code": {
          "coding": [ {
            "system": "http://loinc.org",
            "code": "29549-3",
            "display": "Medication administered"
          } ]
        },
        "entry": [ {
          "reference": "MedicationAdministration/733813"
        }, {
          "reference": "MedicationAdministration/733864"
        } ]
      } ]
    }
  }, {
    "fullUrl": "http://interopEHRate.eu/fhir-resource/Patient/3466",
    "resource": {
      "resourceType": "Patient",
      "id": "3466",
      "meta": {
        "profile": [ "http://interopehrate.eu/fhir/StructureDefinition/Patient-IEHR" ]
      },
      "language": "it-IT",
      "identifier": [ {
        "system": "http://interopEHRate.eu/fhir-resource/",
        "value": "Patient/MS01"
      } ],
      "name": [ {
        "family": "Smith",
        "given": [ "Markus" ]
      } ],
      "gender": "male",
      "birthDate": "2013-12-05",
      "address": [ {
        "use": "home",
        "type": "physical",
        "city": "Rome",
        "country": "ITA"
      } ],
      "generalPractitioner": [ {
        "reference": "Organization/34432"
      } ]
    }
  }, {
    "fullUrl": "http://interopEHRate.eu/fhir-resource/Organization/34432",
    "resource": {
      "resourceType": "Organization",
      "id": "34432",
      "meta": {
        "profile": [ "http://hl7.org/fhir/uv/ips/StructureDefinition/Organization-uv-ips" ]
      },
      "language": "it-IT",
      "identifier": [ {
        "system": "http://interopEHRate.eu/fhir-resource/",
        "value": "Organization/FTGM01"
      } ],
      "name": "Fondazione Gabriele Monasterio",
      "address": [ {
        "line": [ "Via Giuseppe Moruzzi 1" ],
        "city": "Pisa",
        "country": "IT"
      } ]
    }
  }, {
    "fullUrl": "http://interopEHRate.eu/fhir-resource/Encounter/363534",
    "resource": {
      "resourceType": "Encounter",
      "id": "363534",
      "meta": {
        "profile": [ "http://interopehrate.eu/fhir/StructureDefinition/Encounter-IEHR" ]
      },
      "extension": [ {
        "url": "http://interopehrate.eu/fhir/StructureDefinition/ProvenanceExtension-IEHR",
        "valueReference": {
          "reference": "Provenance/12"
        }
      } ],
      "status": "finished",
      "class": {
        "system": "http://terminology.hl7.org/CodeSystem/v3-ActCode",
        "code": "AMB",
        "display": "ambulatory"
      },
      "subject": {
        "reference": "Patient/3466"
      },
      "period": {
        "start": "2021-10-18T12:00:00Z",
        "end": "2021-10-18T14:50:00Z"
      },
      "serviceProvider": {
        "reference": "Organization/34432"
      }
    }
  }, {
    "fullUrl": "http://interopEHRate.eu/fhir-resource/Condition/48239",
    "resource": {
      "resourceType": "Condition",
      "id": "48239",
      "meta": {
        "profile": [ "http://interopehrate.eu/fhir/StructureDefinition/Condition-IEHR" ]
      },
      "extension": [ {
        "url": "http://interopehrate.eu/fhir/StructureDefinition/ProvenanceExtension-IEHR",
        "valueReference": {
          "reference": "Provenance/12"
        }
      } ],
      "clinicalStatus": {
        "coding": [ {
          "system": "http://terminology.hl7.org/CodeSystem/condition-clinical",
          "code": "active",
          "display": "Active"
        } ]
      },
      "verificationStatus": {
        "coding": [ {
          "system": "http://terminology.hl7.org/CodeSystem/condition-ver-status",
          "code": "confirmed",
          "display": "Confirmed"
        } ]
      },
      "code": {
        "coding": [ {
          "system": "http://hl7.org/fhir/sid/icd-10",
          "code": "I47.1",
          "display": "Supraventricular tachycardia"
        } ]
      },
      "subject": {
        "reference": "Patient/3466"
      },
      "onsetDateTime": "2021-10-18"
    }
  }, {
    "fullUrl": "http://interopEHRate.eu/fhir-resource/Condition/482343",
    "resource": {
      "resourceType": "Condition",
      "id": "482343",
      "meta": {
        "profile": [ "http://interopehrate.eu/fhir/StructureDefinition/Condition-IEHR" ]
      },
      "extension": [ {
        "url": "http://interopehrate.eu/fhir/StructureDefinition/ProvenanceExtension-IEHR",
        "valueReference": {
          "reference": "Provenance/12"
        }
      } ],
      "clinicalStatus": {
        "coding": [ {
          "system": "http://terminology.hl7.org/CodeSystem/condition-clinical",
          "code": "active",
          "display": "Active"
        } ]
      },
      "verificationStatus": {
        "coding": [ {
          "system": "http://terminology.hl7.org/CodeSystem/condition-ver-status",
          "code": "provisional",
          "display": "Provisional"
        } ]
      },
      "code": {
        "coding": [ {
          "system": "http://hl7.org/fhir/sid/icd-10",
          "code": "I45.9",
          "display": "Conduction disorder, unspecified"
        } ]
      },
      "subject": {
        "reference": "Patient/3466"
      },
      "onsetDateTime": "2021-10-18"
    }
  }, {
    "fullUrl": "http://interopEHRate.eu/fhir-resource/MedicationAdministration/733813",
    "resource": {
      "resourceType": "MedicationAdministration",
      "id": "733813",
      "extension": [ {
        "url": "http://interopehrate.eu/fhir/StructureDefinition/ProvenanceExtension-IEHR",
        "valueReference": {
          "reference": "Provenance/12"
        }
      } ],
      "status": "completed",
      "category": {
        "coding": [ {
          "system": "http://terminology.hl7.org/CodeSystem/medication-admin-category",
          "code": "outpatient",
          "display": "Outpatient"
        } ]
      },
      "medicationReference": {
        "reference": "Medication/9149"
      },
      "subject": {
        "reference": "Patient/3466"
      },
      "effectiveDateTime": "2021-10-18T13:12:00Z"
    }
  }, {
    "fullUrl": "http://interopEHRate.eu/fhir-resource/MedicationAdministration/733864",
    "resource": {
      "resourceType": "MedicationAdministration",
      "id": "733864",
      "extension": [ {
        "url": "http://interopehrate.eu/fhir/StructureDefinition/ProvenanceExtension-IEHR",
        "valueReference": {
          "reference": "Provenance/12"
        }
      } ],
      "status": "completed",
      "category": {
        "coding": [ {
          "system": "http://terminology.hl7.org/CodeSystem/medication-admin-category",
          "code": "outpatient",
          "display": "Outpatient"
        } ]
      },
      "medicationReference": {
        "reference": "Medication/9165"
      },
      "subject": {
        "reference": "Patient/3466"
      },
      "effectiveDateTime": "2021-10-18T13:14:00Z"
    }
  }, {
    "fullUrl": "http://interopEHRate.eu/fhir-resource/Provenance/12",
    "resource": {
      "resourceType": "Provenance",
      "id": "12",
      "meta": {
        "profile": [ "http://interopehrate.eu/fhir/StructureDefinition/Provenance-IEHR" ]
      },
      "target": [ {
        "reference": "Composition/3970941"
      } ],
      "recorded": "2021-11-18T00:00:00.000+01:00",
      "agent": [ {
        "type": {
          "coding": [ {
            "system": "http://terminology.hl7.org/CodeSystem/provenance-participant-type",
            "code": "author",
            "display": "Author"
          } ]
        },
        "who": {
          "reference": "Practitioner/21"
        }
      }, {
        "type": {
          "coding": [ {
            "system": "http://terminology.hl7.org/CodeSystem/provenance-participant-type",
            "code": "custodian",
            "display": "Custodian"
          } ]
        },
        "who": {
          "reference": "Practitioner/21"
        }
      } ],
      "signature": [ {
        "id": "Signature/04012022",
        "type": [ {
          "system": "urn:iso-astm:E1762-95:2013",
          "code": "1.2.840.10065.1.12.1.5",
          "display": "Verification Signature"
        } ],
        "when": "2022-05-16T16:24:43.969+02:00",
        "who": {
          "reference": "Practitioner/21"
        },
        "targetFormat": "json",
        "sigFormat": "application/jose",
        "data": "ZW1wdHk="
      } ]
    }
  } ]
}